"rt","url","trial_type","trial_index","time_elapsed","internal_node_id","user_sex","user_age","user_nationality","image_name","responses","question_order"
"168775.84000000003","user_info.html","external-html","0","168796","0.0-0.0","male","25","Asia10","","",""
"2568.0499999999884","instruction_page.html","external-html","1","171402","0.0-1.0","","","","","",""
"2904.404999999999","instruction_page2.html","external-html","2","174338","0.0-2.0","","","","","",""
"4421.2699999999895","instruction_page3.html","external-html","3","178834","0.0-3.0","","","","","",""
"9948.534999999974","","survey-likert","4","188787","0.0-4.0","","","","data42","{""0"":1,""1"":1}","[0,1]"
"7627.614999999991","","survey-likert","5","196418","0.0-5.0","","","","data22","{""0"":5,""1"":4}","[0,1]"
"15643.92499999996","","survey-likert","6","212065","0.0-6.0","","","","data44","{""0"":2,""1"":2}","[0,1]"
"9395.975000000006","","survey-likert","7","221465","0.0-7.0","","","","origin15","{""0"":5,""1"":5}","[0,1]"
"8292.649999999965","","survey-likert","8","229760","0.0-8.0","","","","data27","{""0"":5,""1"":5}","[0,1]"
"10092.455000000045","","survey-likert","9","239856","0.0-9.0","","","","data21","{""0"":6,""1"":5}","[0,1]"
"4756.02999999997","","survey-likert","10","244616","0.0-10.0","","","","data50","{""0"":4,""1"":2}","[0,1]"
"9812.604999999981","","survey-likert","11","254431","0.0-11.0","","","","data10","{""0"":5,""1"":5}","[0,1]"
"5787.924999999959","","survey-likert","12","260223","0.0-12.0","","","","origin37","{""0"":6,""1"":5}","[0,1]"
"11220.23000000001","","survey-likert","13","271446","0.0-13.0","","","","origin21","{""0"":4,""1"":3}","[0,1]"
"9155.844999999972","","survey-likert","14","280604","0.0-14.0","","","","origin29","{""0"":4,""1"":3}","[0,1]"
"3627.8799999999464","","survey-likert","15","284235","0.0-15.0","","","","origin40","{""0"":4,""1"":5}","[0,1]"
"9156.095000000088","","survey-likert","16","293394","0.0-16.0","","","","origin13","{""0"":4,""1"":5}","[0,1]"
"8347.959999999963","","survey-likert","17","301745","0.0-17.0","","","","data55","{""0"":5,""1"":6}","[0,1]"
"7659.890000000014","","survey-likert","18","309409","0.0-18.0","","","","origin14","{""0"":6,""1"":5}","[0,1]"
"8780.609999999928","","survey-likert","19","318192","0.0-19.0","","","","data16","{""0"":4,""1"":6}","[0,1]"
"6820.599999999977","","survey-likert","20","325016","0.0-20.0","","","","origin10","{""0"":2,""1"":1}","[0,1]"
"11771.870000000054","","survey-likert","21","336792","0.0-21.0","","","","data48","{""0"":3,""1"":1}","[0,1]"
"8348.115000000049","","survey-likert","22","345144","0.0-22.0","","","","data59","{""0"":1,""1"":4}","[0,1]"
"7803.975000000035","","survey-likert","23","352975","0.0-23.0","","","","origin45","{""0"":5,""1"":4}","[0,1]"
"7622.135000000009","","survey-likert","24","360601","0.0-24.0","","","","data17","{""0"":4,""1"":3}","[0,1]"
"6947.924999999988","","survey-likert","25","367553","0.0-25.0","","","","origin34","{""0"":5,""1"":5}","[0,1]"
"7244.565000000002","","survey-likert","26","374801","0.0-26.0","","","","data7","{""0"":5,""1"":4}","[0,1]"
"7420.025000000023","","survey-likert","27","382226","0.0-27.0","","","","origin46","{""0"":5,""1"":5}","[0,1]"
"14724.059999999998","","survey-likert","28","396954","0.0-28.0","","","","origin1","{""0"":5,""1"":2}","[0,1]"
"22484.719999999972","","survey-likert","29","419437","0.0-29.0","","","","data25","{""0"":2,""1"":4}","[0,1]"
"10083.850000000035","","survey-likert","30","429523","0.0-30.0","","","","origin50","{""0"":5,""1"":2}","[0,1]"
"6764.489999999991","","survey-likert","31","436290","0.0-31.0","","","","data20","{""0"":4,""1"":2}","[0,1]"
"7803.875000000058","","survey-likert","32","444098","0.0-32.0","","","","origin33","{""0"":4,""1"":1}","[0,1]"
"9811.805000000051","","survey-likert","33","453914","0.0-33.0","","","","origin38","{""0"":5,""1"":4}","[0,1]"
"9403.90499999997","","survey-likert","34","463321","0.0-34.0","","","","origin41","{""0"":4,""1"":6}","[0,1]"
"7940.554999999993","","survey-likert","35","471265","0.0-35.0","","","","data28","{""0"":2,""1"":2}","[0,1]"
"3428.6399999999558","","survey-likert","36","474697","0.0-36.0","","","","data19","{""0"":5,""1"":4}","[0,1]"
"9300.544999999925","","survey-likert","37","484001","0.0-37.0","","","","data29","{""0"":4,""1"":4}","[0,1]"
"6692.519999999902","","survey-likert","38","490697","0.0-38.0","","","","data8","{""0"":4,""1"":5}","[0,1]"
"8155.984999999986","","survey-likert","39","498857","0.0-39.0","","","","origin12","{""0"":5,""1"":6}","[0,1]"
"9291.814999999944","","survey-likert","40","508152","0.0-40.0","","","","origin11","{""0"":5,""1"":6}","[0,1]"
"10051.884999999893","","survey-likert","41","518208","0.0-41.0","","","","origin35","{""0"":5,""1"":2}","[0,1]"
"17099.839999999967","","survey-likert","42","535312","0.0-42.0","","","","origin43","{""0"":6,""1"":5}","[0,1]"
"9716.030000000028","","survey-likert","43","545031","0.0-43.0","","","","origin28","{""0"":6,""1"":6}","[0,1]"
"32195.93499999994","","survey-likert","44","577231","0.0-44.0","","","","origin32","{""0"":5,""1"":6}","[0,1]"
"13931.890000000014","","survey-likert","45","591166","0.0-45.0","","","","origin2","{""0"":5,""1"":4}","[0,1]"
"8500.69000000006","","survey-likert","46","599670","0.0-46.0","","","","origin4","{""0"":4,""1"":3}","[0,1]"
"6851.719999999972","","survey-likert","47","606526","0.0-47.0","","","","data39","{""0"":4,""1"":5}","[0,1]"
"4827.925000000047","","survey-likert","48","611358","0.0-48.0","","","","data32","{""0"":6,""1"":4}","[0,1]"
"5316.505000000005","","survey-likert","49","616678","0.0-49.0","","","","origin5","{""0"":5,""1"":6}","[0,1]"
"22131.919999999925","","survey-likert","50","638813","0.0-50.0","","","","data33","{""0"":3,""1"":1}","[0,1]"
"7187.859999999986","","survey-likert","51","646005","0.0-51.0","","","","origin3","{""0"":4,""1"":1}","[0,1]"
"17572.52000000002","","survey-likert","52","663581","0.0-52.0","","","","data26","{""0"":4,""1"":2}","[0,1]"
"10083.865000000107","","survey-likert","53","673668","0.0-53.0","","","","origin44","{""0"":5,""1"":4}","[0,1]"
"13075.880000000005","","survey-likert","54","686748","0.0-54.0","","","","data51","{""0"":6,""1"":5}","[0,1]"
"7211.949999999953","","survey-likert","55","693964","0.0-55.0","","","","origin30","{""0"":6,""1"":5}","[0,1]"
"10771.875000000116","","survey-likert","56","704739","0.0-56.0","","","","origin47","{""0"":4,""1"":3}","[0,1]"
"7380.035000000033","","survey-likert","57","712124","0.0-57.0","","","","origin25","{""0"":4,""1"":2}","[0,1]"
"14699.139999999898","","survey-likert","58","726827","0.0-58.0","","","","data2","{""0"":4,""1"":4}","[0,1]"
"29826.36499999999","","survey-likert","59","756658","0.0-59.0","","","","data53","{""0"":4,""1"":4}","[0,1]"
"5732.064999999944","","survey-likert","60","762394","0.0-60.0","","","","data57","{""0"":4,""1"":1}","[0,1]"
"23612.199999999837","","survey-likert","61","786009","0.0-61.0","","","","data45","{""0"":3,""1"":4}","[0,1]"
"5748.770000000019","","survey-likert","62","791761","0.0-62.0","","","","origin6","{""0"":5,""1"":4}","[0,1]"
"9468.244999999995","","survey-likert","63","801233","0.0-63.0","","","","data43","{""0"":5,""1"":4}","[0,1]"
"14404.209999999963","","survey-likert","64","815641","0.0-64.0","","","","data35","{""0"":4,""1"":6}","[0,1]"
"8396.110000000102","","survey-likert","65","824041","0.0-65.0","","","","origin19","{""0"":6,""1"":5}","[0,1]"
"7740.214999999851","","survey-likert","66","831784","0.0-66.0","","","","origin17","{""0"":6,""1"":4}","[0,1]"
"18852.189999999944","","survey-likert","67","850640","0.0-67.0","","","","origin49","{""0"":3,""1"":5}","[0,1]"
"8388.604999999981","","survey-likert","68","859032","0.0-68.0","","","","data18","{""0"":4,""1"":1}","[0,1]"
"6972.925000000047","","survey-likert","69","866008","0.0-69.0","","","","origin7","{""0"":5,""1"":4}","[0,1]"
"5676.235000000102","","survey-likert","70","871687","0.0-70.0","","","","data52","{""0"":5,""1"":4}","[0,1]"
"6420.244999999995","","survey-likert","71","878111","0.0-71.0","","","","origin27","{""0"":5,""1"":5}","[0,1]"
"7340.320000000065","","survey-likert","72","885455","0.0-72.0","","","","data36","{""0"":4,""1"":2}","[0,1]"
"11508.745000000112","","survey-likert","73","896967","0.0-73.0","","","","data12","{""0"":3,""1"":2}","[0,1]"
"8172.244999999995","","survey-likert","74","905143","0.0-74.0","","","","origin31","{""0"":4,""1"":3}","[0,1]"
"5892.20000000007","","survey-likert","75","911039","0.0-75.0","","","","data31","{""0"":5,""1"":2}","[0,1]"
"13052.780000000028","","survey-likert","76","924094","0.0-76.0","","","","origin9","{""0"":2,""1"":5}","[0,1]"
"10396.600000000093","","survey-likert","77","934494","0.0-77.0","","","","origin8","{""0"":5,""1"":4}","[0,1]"
"16020.809999999823","","survey-likert","78","950518","0.0-78.0","","","","data23","{""0"":3,""1"":3}","[0,1]"
"10228.225000000093","","survey-likert","79","960749","0.0-79.0","","","","data37","{""0"":2,""1"":3}","[0,1]"
"18676.24500000011","","survey-likert","80","979429","0.0-80.0","","","","origin42","{""0"":3,""1"":0}","[0,1]"
"4580.284999999916","","survey-likert","81","984013","0.0-81.0","","","","data38","{""0"":4,""1"":1}","[0,1]"
"15508.589999999851","","survey-likert","82","999524","0.0-82.0","","","","data24","{""0"":4,""1"":4}","[0,1]"
"7388.314999999944","","survey-likert","83","1006916","0.0-83.0","","","","origin36","{""0"":5,""1"":4}","[0,1]"
"5076.045000000042","","survey-likert","84","1011996","0.0-84.0","","","","data41","{""0"":6,""1"":5}","[0,1]"
"10140.47499999986","","survey-likert","85","1022140","0.0-85.0","","","","origin24","{""0"":5,""1"":3}","[0,1]"
"9092.779999999912","","survey-likert","86","1031236","0.0-86.0","","","","data4","{""0"":3,""1"":2}","[0,1]"
"12780.844999999972","","survey-likert","87","1044020","0.0-87.0","","","","data6","{""0"":6,""1"":6}","[0,1]"
"7004.195000000065","","survey-likert","88","1051028","0.0-88.0","","","","origin18","{""0"":4,""1"":2}","[0,1]"
"7332.130000000121","","survey-likert","89","1058363","0.0-89.0","","","","data3","{""0"":4,""1"":1}","[0,1]"
"33676.159999999916","","survey-likert","90","1092043","0.0-90.0","","","","origin39","{""0"":5,""1"":6}","[0,1]"
"5556.600000000093","","survey-likert","91","1097603","0.0-91.0","","","","data15","{""0"":4,""1"":2}","[0,1]"
"17316.10999999987","","survey-likert","92","1114922","0.0-92.0","","","","origin23","{""0"":5,""1"":6}","[0,1]"
"19996.180000000168","","survey-likert","93","1134922","0.0-93.0","","","","data1","{""0"":3,""1"":2}","[0,1]"
"12468.280000000028","","survey-likert","94","1147394","0.0-94.0","","","","origin26","{""0"":4,""1"":1}","[0,1]"
"16052.214999999851","","survey-likert","95","1163449","0.0-95.0","","","","data30","{""0"":1,""1"":5}","[0,1]"
"27004.34999999986","","survey-likert","96","1190457","0.0-96.0","","","","data49","{""0"":1,""1"":4}","[0,1]"
"6580.120000000112","","survey-likert","97","1197041","0.0-97.0","","","","data47","{""0"":4,""1"":4}","[0,1]"
"17100.88000000012","","survey-likert","98","1214144","0.0-98.0","","","","data11","{""0"":1,""1"":6}","[0,1]"
"15628.615000000224","","survey-likert","99","1229776","0.0-99.0","","","","data14","{""0"":1,""1"":5}","[0,1]"
"17164.220000000205","","survey-likert","100","1246944","0.0-100.0","","","","origin48","{""0"":4,""1"":5}","[0,1]"
"5772.284999999916","","survey-likert","101","1252720","0.0-101.0","","","","origin20","{""0"":5,""1"":2}","[0,1]"
"12252.719999999972","","survey-likert","102","1264975","0.0-102.0","","","","data13","{""0"":3,""1"":5}","[0,1]"
"6156.15000000014","","survey-likert","103","1271135","0.0-103.0","","","","data34","{""0"":4,""1"":2}","[0,1]"
"7324.284999999916","","survey-likert","104","1278463","0.0-104.0","","","","data58","{""0"":4,""1"":2}","[0,1]"
"8748.245000000112","","survey-likert","105","1287215","0.0-105.0","","","","origin22","{""0"":5,""1"":5}","[0,1]"
"8436.745000000112","","survey-likert","106","1295655","0.0-106.0","","","","data9","{""0"":2,""1"":3}","[0,1]"
"11348.014999999898","","survey-likert","107","1307006","0.0-107.0","","","","data54","{""0"":2,""1"":5}","[0,1]"
"11292.34999999986","","survey-likert","108","1318302","0.0-108.0","","","","data46","{""0"":3,""1"":6}","[0,1]"
"7828.340000000084","","survey-likert","109","1326134","0.0-109.0","","","","data40","{""0"":4,""1"":4}","[0,1]"
"6748.165000000037","","survey-likert","110","1332886","0.0-110.0","","","","origin16","{""0"":5,""1"":4}","[0,1]"
"11028.805000000168","","survey-likert","111","1343918","0.0-111.0","","","","data5","{""0"":3,""1"":1}","[0,1]"
"10396.169999999925","","survey-likert","112","1354317","0.0-112.0","","","","data56","{""0"":5,""1"":4}","[0,1]"
"2458.6349999997765","CES_D.html","external-html","113","1356812","0.0-113.0","","","","","",""
"117048.81000000006","","survey-likert2","114","1473864","0.0-114.0","","","","","{""p1"":1,""p2"":2,""p3"":1,""p4"":1,""p5"":1,""p6"":1,""p7"":0,""p8"":1,""p9"":1,""p10"":1,""p11"":0,""p12"":1,""p13"":1,""p14"":0,""p15"":0,""p16"":1,""p17"":0,""p18"":1,""p19"":0,""p20"":1}","[0,1,2,3,4,5,6,7,8,9,10,11,12,13,14,15,16,17,18,19]"
