"rt","url","trial_type","trial_index","time_elapsed","internal_node_id","user_sex","user_age","user_nationality","image_name","responses","question_order"
"24277.45999977924","user_info.html","external-html","0","24315","0.0-0.0","female","43","europe6,Africa10","","",""
"878.7549999542534","instruction_page.html","external-html","1","25203","0.0-1.0","","","","","",""
"664.1850001178682","instruction_page2.html","external-html","2","25876","0.0-2.0","","","","","",""
"986.9899998884648","instruction_page3.html","external-html","3","26870","0.0-3.0","","","","","",""
"3051.1000000406057","","survey-likert","4","29926","0.0-4.0","","","","origin7","{""0"":4,""1"":6}","[0,1]"
"2905.0149999093264","","survey-likert","5","32838","0.0-5.0","","","","data48","{""0"":5,""1"":3}","[0,1]"
"3598.2800000347197","","survey-likert","6","36447","0.0-6.0","","","","data44","{""0"":3,""1"":6}","[0,1]"
"6515.374999959022","","survey-likert","7","42968","0.0-7.0","","","","data37","{""0"":4,""1"":4}","[0,1]"
"4453.634999925271","","survey-likert","8","47428","0.0-8.0","","","","origin24","{""0"":6,""1"":5}","[0,1]"
"3825.7100000046194","","survey-likert","9","51260","0.0-9.0","","","","origin43","{""0"":4,""1"":5}","[0,1]"
"3910.1250001695007","","survey-likert","10","55178","0.0-10.0","","","","origin47","{""0"":5,""1"":4}","[0,1]"
"3005.3349998779595","","survey-likert","11","58190","0.0-11.0","","","","origin28","{""0"":3,""1"":6}","[0,1]"
"3527.409999864176","","survey-likert","12","61724","0.0-12.0","","","","origin20","{""0"":6,""1"":4}","[0,1]"
"17578.035000013188","","survey-likert","13","79308","0.0-13.0","","","","data38","{""0"":5,""1"":6}","[0,1]"
"3556.6099998541176","","survey-likert","14","82873","0.0-14.0","","","","data41","{""0"":6,""1"":6}","[0,1]"
"10635.999999940395","","survey-likert","15","93518","0.0-15.0","","","","origin18","{""0"":6,""1"":5}","[0,1]"
"2525.164999999106","","survey-likert","16","96051","0.0-16.0","","","","origin15","{""0"":6,""1"":5}","[0,1]"
"3376.4199998695403","","survey-likert","17","99433","0.0-17.0","","","","data47","{""0"":5,""1"":6}","[0,1]"
"2397.4649999290705","","survey-likert","18","101838","0.0-18.0","","","","data27","{""0"":6,""1"":5}","[0,1]"
"3083.3550000097603","","survey-likert","19","104932","0.0-19.0","","","","origin30","{""0"":5,""1"":5}","[0,1]"
"3491.7199998162687","","survey-likert","20","108432","0.0-20.0","","","","data5","{""0"":6,""1"":5}","[0,1]"
"4371.624999912456","","survey-likert","21","112810","0.0-21.0","","","","data23","{""0"":5,""1"":6}","[0,1]"
"3245.4100002069026","","survey-likert","22","116061","0.0-22.0","","","","origin29","{""0"":6,""1"":5}","[0,1]"
"4661.75500000827","","survey-likert","23","120730","0.0-23.0","","","","data43","{""0"":5,""1"":6}","[0,1]"
"2618.8799999654293","","survey-likert","24","123358","0.0-24.0","","","","data14","{""0"":5,""1"":5}","[0,1]"
"2595.960000064224","","survey-likert","25","125961","0.0-25.0","","","","origin2","{""0"":6,""1"":5}","[0,1]"
"2238.310000160709","","survey-likert","26","128205","0.0-26.0","","","","origin14","{""0"":5,""1"":6}","[0,1]"
"3906.620000023395","","survey-likert","27","132119","0.0-27.0","","","","data3","{""0"":6,""1"":5}","[0,1]"
"3065.2649998664856","","survey-likert","28","135190","0.0-28.0","","","","origin10","{""0"":5,""1"":4}","[0,1]"
"3483.795000007376","","survey-likert","29","138678","0.0-29.0","","","","data54","{""0"":4,""1"":6}","[0,1]"
"2887.3250000178814","","survey-likert","30","141572","0.0-30.0","","","","origin22","{""0"":5,""1"":5}","[0,1]"
"2625.149999978021","","survey-likert","31","144204","0.0-31.0","","","","origin27","{""0"":6,""1"":4}","[0,1]"
"4885.465000057593","","survey-likert","32","149095","0.0-32.0","","","","data28","{""0"":4,""1"":6}","[0,1]"
"3080.634999787435","","survey-likert","33","152184","0.0-33.0","","","","origin41","{""0"":5,""1"":5}","[0,1]"
"2780.189999844879","","survey-likert","34","154970","0.0-34.0","","","","data36","{""0"":6,""1"":4}","[0,1]"
"3158.464999869466","","survey-likert","35","158135","0.0-35.0","","","","data6","{""0"":5,""1"":6}","[0,1]"
"3541.7849998921156","","survey-likert","36","161682","0.0-36.0","","","","data17","{""0"":6,""1"":4}","[0,1]"
"3539.4499998074025","","survey-likert","37","165229","0.0-37.0","","","","origin11","{""0"":5,""1"":3}","[0,1]"
"4291.250000009313","","survey-likert","38","169526","0.0-38.0","","","","origin6","{""0"":4,""1"":6}","[0,1]"
"2904.8300001304597","","survey-likert","39","172439","0.0-39.0","","","","origin23","{""0"":6,""1"":5}","[0,1]"
"7333.244999870658","","survey-likert","40","179778","0.0-40.0","","","","data59","{""0"":6,""1"":5}","[0,1]"
"2927.034999942407","","survey-likert","41","182712","0.0-41.0","","","","origin17","{""0"":4,""1"":6}","[0,1]"
"3266.2649999838322","","survey-likert","42","185984","0.0-42.0","","","","origin45","{""0"":6,""1"":4}","[0,1]"
"3407.505000010133","","survey-likert","43","189400","0.0-43.0","","","","origin1","{""0"":5,""1"":5}","[0,1]"
"7518.5899999924","","survey-likert","44","196925","0.0-44.0","","","","data53","{""0"":5,""1"":5}","[0,1]"
"2743.049999931827","","survey-likert","45","199674","0.0-45.0","","","","data35","{""0"":4,""1"":6}","[0,1]"
"2937.8249999135733","","survey-likert","46","202617","0.0-46.0","","","","data40","{""0"":6,""1"":4}","[0,1]"
"3630.2700000815094","","survey-likert","47","206254","0.0-47.0","","","","origin9","{""0"":5,""1"":4}","[0,1]"
"4758.330000098795","","survey-likert","48","211019","0.0-48.0","","","","origin31","{""0"":4,""1"":5}","[0,1]"
"2073.904999997467","","survey-likert","49","213099","0.0-49.0","","","","data52","{""0"":5,""1"":4}","[0,1]"
"3326.230000006035","","survey-likert","50","216431","0.0-50.0","","","","origin19","{""0"":6,""1"":5}","[0,1]"
"3251.729999901727","","survey-likert","51","219688","0.0-51.0","","","","origin12","{""0"":5,""1"":6}","[0,1]"
"2440.429999958724","","survey-likert","52","222135","0.0-52.0","","","","data56","{""0"":6,""1"":4}","[0,1]"
"4685.405000112951","","survey-likert","53","226829","0.0-53.0","","","","data10","{""0"":5,""1"":6}","[0,1]"
"2537.980000022799","","survey-likert","54","229375","0.0-54.0","","","","origin46","{""0"":5,""1"":5}","[0,1]"
"3357.6400000602007","","survey-likert","55","232738","0.0-55.0","","","","data51","{""0"":6,""1"":4}","[0,1]"
"3616.565000033006","","survey-likert","56","236362","0.0-56.0","","","","data1","{""0"":6,""1"":6}","[0,1]"
"3172.2049999516457","","survey-likert","57","239542","0.0-57.0","","","","data32","{""0"":6,""1"":3}","[0,1]"
"3042.270000092685","","survey-likert","58","242592","0.0-58.0","","","","origin33","{""0"":5,""1"":6}","[0,1]"
"3038.0149998236448","","survey-likert","59","245634","0.0-59.0","","","","data31","{""0"":6,""1"":5}","[0,1]"
"2226.2050001882017","","survey-likert","60","247867","0.0-60.0","","","","data29","{""0"":5,""1"":6}","[0,1]"
"2243.83999989368","","survey-likert","61","250117","0.0-61.0","","","","data49","{""0"":6,""1"":5}","[0,1]"
"2571.639999980107","","survey-likert","62","252693","0.0-62.0","","","","origin21","{""0"":5,""1"":5}","[0,1]"
"1878.190000075847","","survey-likert","63","254577","0.0-63.0","","","","data30","{""0"":5,""1"":6}","[0,1]"
"2871.999999973923","","survey-likert","64","257454","0.0-64.0","","","","data25","{""0"":6,""1"":5}","[0,1]"
"3287.2899998910725","","survey-likert","65","260747","0.0-65.0","","","","origin40","{""0"":5,""1"":6}","[0,1]"
"3844.069999875501","","survey-likert","66","264597","0.0-66.0","","","","origin44","{""0"":6,""1"":5}","[0,1]"
"2681.654999963939","","survey-likert","67","267285","0.0-67.0","","","","origin38","{""0"":6,""1"":5}","[0,1]"
"4078.9399999193847","","survey-likert","68","271368","0.0-68.0","","","","origin5","{""0"":6,""1"":6}","[0,1]"
"3961.7349999025464","","survey-likert","69","275337","0.0-69.0","","","","origin25","{""0"":5,""1"":6}","[0,1]"
"3644.2800001241267","","survey-likert","70","278986","0.0-70.0","","","","origin39","{""0"":6,""1"":5}","[0,1]"
"2261.549999937415","","survey-likert","71","281254","0.0-71.0","","","","data7","{""0"":6,""1"":5}","[0,1]"
"2151.784999994561","","survey-likert","72","283412","0.0-72.0","","","","origin32","{""0"":6,""1"":5}","[0,1]"
"2856.6850000061095","","survey-likert","73","286275","0.0-73.0","","","","data22","{""0"":5,""1"":6}","[0,1]"
"2770.160000072792","","survey-likert","74","289052","0.0-74.0","","","","origin37","{""0"":6,""1"":5}","[0,1]"
"2629.3750000186265","","survey-likert","75","291688","0.0-75.0","","","","data20","{""0"":5,""1"":6}","[0,1]"
"2458.2250001840293","","survey-likert","76","294152","0.0-76.0","","","","origin48","{""0"":6,""1"":5}","[0,1]"
"3108.3899999503046","","survey-likert","77","297266","0.0-77.0","","","","data4","{""0"":5,""1"":5}","[0,1]"
"5353.280000155792","","survey-likert","78","302625","0.0-78.0","","","","data39","{""0"":5,""1"":5}","[0,1]"
"3319.194999989122","","survey-likert","79","305950","0.0-79.0","","","","origin42","{""0"":4,""1"":5}","[0,1]"
"28918.4050001204","","survey-likert","80","334875","0.0-80.0","","","","origin13","{""0"":6,""1"":6}","[0,1]"
"3063.1250001024455","","survey-likert","81","337943","0.0-81.0","","","","origin8","{""0"":6,""1"":6}","[0,1]"
"2898.1800000183284","","survey-likert","82","340847","0.0-82.0","","","","data2","{""0"":6,""1"":6}","[0,1]"
"4361.34499986656","","survey-likert","83","345216","0.0-83.0","","","","origin3","{""0"":5,""1"":6}","[0,1]"
"19674.145000055432","","survey-likert","84","364898","0.0-84.0","","","","origin34","{""0"":5,""1"":6}","[0,1]"
"2738.264999818057","","survey-likert","85","367642","0.0-85.0","","","","data18","{""0"":6,""1"":5}","[0,1]"
"3283.460000064224","","survey-likert","86","370932","0.0-86.0","","","","data33","{""0"":5,""1"":6}","[0,1]"
"2470.1349998358637","","survey-likert","87","373407","0.0-87.0","","","","data24","{""0"":6,""1"":5}","[0,1]"
"3413.7849998660386","","survey-likert","88","376826","0.0-88.0","","","","data26","{""0"":5,""1"":6}","[0,1]"
"6513.885000022128","","survey-likert","89","383347","0.0-89.0","","","","data9","{""0"":6,""1"":5}","[0,1]"
"8110.479999799281","","survey-likert","90","391465","0.0-90.0","","","","origin26","{""0"":5,""1"":6}","[0,1]"
"3942.405000096187","","survey-likert","91","395416","0.0-91.0","","","","data45","{""0"":6,""1"":5}","[0,1]"
"3830.7000000495464","","survey-likert","92","399250","0.0-92.0","","","","origin35","{""0"":5,""1"":6}","[0,1]"
"3422.50999994576","","survey-likert","93","402679","0.0-93.0","","","","data11","{""0"":6,""1"":5}","[0,1]"
"3478.9399998262525","","survey-likert","94","406165","0.0-94.0","","","","data58","{""0"":6,""1"":6}","[0,1]"
"4531.764999963343","","survey-likert","95","410704","0.0-95.0","","","","data50","{""0"":5,""1"":6}","[0,1]"
"3390.275000128895","","survey-likert","96","414099","0.0-96.0","","","","data12","{""0"":6,""1"":5}","[0,1]"
"3096.049999818206","","survey-likert","97","417199","0.0-97.0","","","","data21","{""0"":5,""1"":6}","[0,1]"
"2431.7699999082834","","survey-likert","98","419635","0.0-98.0","","","","data16","{""0"":6,""1"":5}","[0,1]"
"5912.455000216141","","survey-likert","99","425556","0.0-99.0","","","","origin49","{""0"":5,""1"":6}","[0,1]"
"3627.335000084713","","survey-likert","100","429188","0.0-100.0","","","","data19","{""0"":6,""1"":5}","[0,1]"
"3910.410000011325","","survey-likert","101","433104","0.0-101.0","","","","data15","{""0"":5,""1"":6}","[0,1]"
"2081.000000005588","","survey-likert","102","435190","0.0-102.0","","","","data13","{""0"":6,""1"":5}","[0,1]"
"1903.6099999211729","","survey-likert","103","437099","0.0-103.0","","","","data46","{""0"":5,""1"":6}","[0,1]"
"2066.7399999219924","","survey-likert","104","439169","0.0-104.0","","","","data42","{""0"":6,""1"":5}","[0,1]"
"3129.1300000157207","","survey-likert","105","442304","0.0-105.0","","","","data55","{""0"":5,""1"":6}","[0,1]"
"5034.805000061169","","survey-likert","106","447345","0.0-106.0","","","","origin16","{""0"":6,""1"":5}","[0,1]"
"3598.4499999321997","","survey-likert","107","450953","0.0-107.0","","","","origin50","{""0"":5,""1"":6}","[0,1]"
"3163.200000068173","","survey-likert","108","454121","0.0-108.0","","","","origin36","{""0"":5,""1"":4}","[0,1]"
"2266.0900000482798","","survey-likert","109","456393","0.0-109.0","","","","origin4","{""0"":4,""1"":4}","[0,1]"
"4057.275000028312","","survey-likert","110","460458","0.0-110.0","","","","data34","{""0"":3,""1"":4}","[0,1]"
"3129.5849999878556","","survey-likert","111","463592","0.0-111.0","","","","data8","{""0"":5,""1"":5}","[0,1]"
"5263.485000003129","","survey-likert","112","468861","0.0-112.0","","","","data57","{""0"":6,""1"":5}","[0,1]"
"40648.14499998465","","survey-likert2","113","509519","0.0-113.0","","","","","{""p9"":0,""p20"":0,""p13"":2,""p14"":1,""p4"":2,""p8"":3,""p18"":1,""p19"":3,""p1"":0,""p3"":3,""p11"":2,""p10"":1,""p16"":2,""p6"":1,""p15"":0,""p7"":0,""p12"":0,""p17"":3,""p2"":2,""p5"":2}","[8,19,12,13,3,7,17,18,0,2,10,9,15,5,14,6,11,16,1,4]"
