rt,url,trial_type,trial_index,time_elapsed,internal_node_id,user_sex,user_age,user_nationality,image_name,responses,question_order
225587.89,user_info.html,external-html,0,324318,0.0-0.0,female,31,Asia10,,,
21826.66,instruction_page.html,external-html,1,346178,0.0-1.0,,,,,,
7573.185,instruction_page2.html,external-html,2,353786,0.0-2.0,,,,,,
1300.035,instruction_page3.html,external-html,3,355114,0.0-3.0,,,,,,
16885.63,,survey-likert,4,372003,0.0-4.0,,,,origin3,"{""0"":6,""1"":1}","[0,1]"
17603.925,,survey-likert,5,389610,0.0-5.0,,,,data57,"{""0"":2,""1"":5}","[0,1]"
6844.135,,survey-likert,6,396458,0.0-6.0,,,,origin38,"{""0"":6,""1"":6}","[0,1]"
10228.605,,survey-likert,7,406690,0.0-7.0,,,,data10,"{""0"":3,""1"":5}","[0,1]"
9460.81,,survey-likert,8,416154,0.0-8.0,,,,data16,"{""0"":3,""1"":2}","[0,1]"
10028.03,,survey-likert,9,426185,0.0-9.0,,,,data53,"{""0"":4,""1"":4}","[0,1]"
17900.285,,survey-likert,10,444089,0.0-10.0,,,,origin28,"{""0"":5,""1"":4}","[0,1]"
16844.24,,survey-likert,11,460937,0.0-11.0,,,,origin39,"{""0"":5,""1"":2}","[0,1]"
11964.27,,survey-likert,12,472904,0.0-12.0,,,,origin42,"{""0"":3,""1"":4}","[0,1]"
6796.195,,survey-likert,13,479704,0.0-13.0,,,,origin45,"{""0"":4,""1"":5}","[0,1]"
14780.15,,survey-likert,14,494488,0.0-14.0,,,,data43,"{""0"":4,""1"":3}","[0,1]"
5892.8,,survey-likert,15,500384,0.0-15.0,,,,data21,"{""0"":5,""1"":4}","[0,1]"
7276.75,,survey-likert,16,507664,0.0-16.0,,,,origin5,"{""0"":6,""1"":3}","[0,1]"
11300.225,,survey-likert,17,518967,0.0-17.0,,,,origin1,"{""0"":5,""1"":3}","[0,1]"
8396.23,,survey-likert,18,527367,0.0-18.0,,,,data39,"{""0"":4,""1"":4}","[0,1]"
9356.73,,survey-likert,19,536727,0.0-19.0,,,,data20,"{""0"":5,""1"":4}","[0,1]"
8052.215,,survey-likert,20,544783,0.0-20.0,,,,origin12,"{""0"":5,""1"":5}","[0,1]"
5260.92,,survey-likert,21,550047,0.0-21.0,,,,data15,"{""0"":4,""1"":3}","[0,1]"
9044.435,,survey-likert,22,559094,0.0-22.0,,,,data38,"{""0"":5,""1"":4}","[0,1]"
7636.805,,survey-likert,23,566735,0.0-23.0,,,,origin7,"{""0"":6,""1"":4}","[0,1]"
14932.01,,survey-likert,24,581670,0.0-24.0,,,,origin49,"{""0"":2,""1"":2}","[0,1]"
6076.725,,survey-likert,25,587750,0.0-25.0,,,,data7,"{""0"":4,""1"":4}","[0,1]"
13788.145,,survey-likert,26,601541,0.0-26.0,,,,origin34,"{""0"":6,""1"":5}","[0,1]"
3428.23,,survey-likert,27,604973,0.0-27.0,,,,origin27,"{""0"":6,""1"":4}","[0,1]"
5052.625,,survey-likert,28,610029,0.0-28.0,,,,data45,"{""0"":3,""1"":4}","[0,1]"
6564.415,,survey-likert,29,616597,0.0-29.0,,,,data41,"{""0"":6,""1"":5}","[0,1]"
16732.465,,survey-likert,30,633333,0.0-30.0,,,,origin20,"{""0"":5,""1"":4}","[0,1]"
8604.345,,survey-likert,31,641940,0.0-31.0,,,,data50,"{""0"":4,""1"":4}","[0,1]"
32428.74,,survey-likert,32,674372,0.0-32.0,,,,data14,"{""0"":2,""1"":4}","[0,1]"
9860.36,,survey-likert,33,684236,0.0-33.0,,,,origin30,"{""0"":3,""1"":4}","[0,1]"
6708.795,,survey-likert,34,690947,0.0-34.0,,,,data19,"{""0"":4,""1"":4}","[0,1]"
4492.33,,survey-likert,35,695443,0.0-35.0,,,,origin48,"{""0"":5,""1"":5}","[0,1]"
8956.755,,survey-likert,36,704403,0.0-36.0,,,,data13,"{""0"":3,""1"":4}","[0,1]"
5852.395,,survey-likert,37,710259,0.0-37.0,,,,origin43,"{""0"":6,""1"":5}","[0,1]"
5364.74,,survey-likert,38,715627,0.0-38.0,,,,data12,"{""0"":2,""1"":4}","[0,1]"
4404.97,,survey-likert,39,720035,0.0-39.0,,,,data26,"{""0"":3,""1"":4}","[0,1]"
6484.9,,survey-likert,40,726523,0.0-40.0,,,,data23,"{""0"":4,""1"":3}","[0,1]"
6596.125,,survey-likert,41,733122,0.0-41.0,,,,origin23,"{""0"":6,""1"":5}","[0,1]"
5684.43,,survey-likert,42,738810,0.0-42.0,,,,origin31,"{""0"":5,""1"":4}","[0,1]"
40364.315,,survey-likert,43,779177,0.0-43.0,,,,data2,"{""0"":5,""1"":4}","[0,1]"
5084.845,,survey-likert,44,784265,0.0-44.0,,,,origin10,"{""0"":3,""1"":4}","[0,1]"
4284.34,,survey-likert,45,788553,0.0-45.0,,,,origin32,"{""0"":6,""1"":5}","[0,1]"
13980.595,,survey-likert,46,802537,0.0-46.0,,,,data28,"{""0"":5,""1"":1}","[0,1]"
6988.275,,survey-likert,47,809529,0.0-47.0,,,,data52,"{""0"":4,""1"":4}","[0,1]"
4660.485,,survey-likert,48,814193,0.0-48.0,,,,origin29,"{""0"":5,""1"":5}","[0,1]"
6612.905,,survey-likert,49,820809,0.0-49.0,,,,data27,"{""0"":3,""1"":4}","[0,1]"
14692.38,,survey-likert,50,835504,0.0-50.0,,,,data42,"{""0"":1,""1"":4}","[0,1]"
14484.695,,survey-likert,51,849992,0.0-51.0,,,,data18,"{""0"":4,""1"":2}","[0,1]"
7476.2,,survey-likert,52,857472,0.0-52.0,,,,origin33,"{""0"":3,""1"":1}","[0,1]"
6124.99,,survey-likert,53,863600,0.0-53.0,,,,data5,"{""0"":3,""1"":3}","[0,1]"
5588.785,,survey-likert,54,869191,0.0-54.0,,,,data11,"{""0"":4,""1"":4}","[0,1]"
6884.255,,survey-likert,55,876079,0.0-55.0,,,,data44,"{""0"":3,""1"":4}","[0,1]"
7140.385,,survey-likert,56,883223,0.0-56.0,,,,origin24,"{""0"":5,""1"":4}","[0,1]"
6260.74,,survey-likert,57,889488,0.0-57.0,,,,origin6,"{""0"":5,""1"":2}","[0,1]"
4363.945,,survey-likert,58,893855,0.0-58.0,,,,origin2,"{""0"":5,""1"":3}","[0,1]"
11076.235,,survey-likert,59,904935,0.0-59.0,,,,data49,"{""0"":5,""1"":4}","[0,1]"
3932.4,,survey-likert,60,908871,0.0-60.0,,,,origin19,"{""0"":5,""1"":5}","[0,1]"
13132.795,,survey-likert,61,922900,0.0-61.0,,,,origin11,"{""0"":6,""1"":5}","[0,1]"
5404.28,,survey-likert,62,928308,0.0-62.0,,,,origin40,"{""0"":5,""1"":5}","[0,1]"
7100.195,,survey-likert,63,935412,0.0-63.0,,,,data34,"{""0"":5,""1"":5}","[0,1]"
6964.485,,survey-likert,64,942380,0.0-64.0,,,,origin17,"{""0"":6,""1"":5}","[0,1]"
4220.755,,survey-likert,65,946604,0.0-65.0,,,,data29,"{""0"":5,""1"":2}","[0,1]"
7404.185,,survey-likert,66,954011,0.0-66.0,,,,data35,"{""0"":6,""1"":3}","[0,1]"
5764.44,,survey-likert,67,959779,0.0-67.0,,,,data40,"{""0"":4,""1"":3}","[0,1]"
5580.505,,survey-likert,68,965364,0.0-68.0,,,,origin44,"{""0"":5,""1"":5}","[0,1]"
6260.825,,survey-likert,69,971627,0.0-69.0,,,,origin8,"{""0"":5,""1"":5}","[0,1]"
15805,,survey-likert,70,987435,0.0-70.0,,,,data22,"{""0"":6,""1"":4}","[0,1]"
5756.285,,survey-likert,71,993195,0.0-71.0,,,,data37,"{""0"":4,""1"":1}","[0,1]"
4900.35,,survey-likert,72,998099,0.0-72.0,,,,data31,"{""0"":5,""1"":3}","[0,1]"
10428.285,,survey-likert,73,1008531,0.0-73.0,,,,origin18,"{""0"":2,""1"":4}","[0,1]"
8644.25,,survey-likert,74,1017179,0.0-74.0,,,,origin25,"{""0"":6,""1"":4}","[0,1]"
11372.28,,survey-likert,75,1028555,0.0-75.0,,,,origin37,"{""0"":6,""1"":6}","[0,1]"
6692.25,,survey-likert,76,1035251,0.0-76.0,,,,origin14,"{""0"":6,""1"":6}","[0,1]"
8772.425,,survey-likert,77,1044027,0.0-77.0,,,,origin46,"{""0"":6,""1"":5}","[0,1]"
10156.825,,survey-likert,78,1054186,0.0-78.0,,,,data4,"{""0"":3,""1"":3}","[0,1]"
12012.265,,survey-likert,79,1066202,0.0-79.0,,,,origin47,"{""0"":4,""1"":4}","[0,1]"
5212.46,,survey-likert,80,1071418,0.0-80.0,,,,origin26,"{""0"":6,""1"":5}","[0,1]"
5172.775,,survey-likert,81,1076594,0.0-81.0,,,,origin9,"{""0"":4,""1"":4}","[0,1]"
3516.27,,survey-likert,82,1080114,0.0-82.0,,,,data55,"{""0"":5,""1"":5}","[0,1]"
9172.825,,survey-likert,83,1089290,0.0-83.0,,,,data25,"{""0"":2,""1"":4}","[0,1]"
4924.26,,survey-likert,84,1094218,0.0-84.0,,,,data32,"{""0"":5,""1"":4}","[0,1]"
6684.835,,survey-likert,85,1100906,0.0-85.0,,,,data6,"{""0"":6,""1"":4}","[0,1]"
9980.355,,survey-likert,86,1110890,0.0-86.0,,,,data30,"{""0"":5,""1"":4}","[0,1]"
5564.41,,survey-likert,87,1116458,0.0-87.0,,,,origin21,"{""0"":6,""1"":5}","[0,1]"
11556.385,,survey-likert,88,1128018,0.0-88.0,,,,data48,"{""0"":1,""1"":5}","[0,1]"
5628.86,,survey-likert,89,1133650,0.0-89.0,,,,data9,"{""0"":4,""1"":2}","[0,1]"
7460.39,,survey-likert,90,1141114,0.0-90.0,,,,data3,"{""0"":4,""1"":2}","[0,1]"
7956.275,,survey-likert,91,1149073,0.0-91.0,,,,origin15,"{""0"":6,""1"":4}","[0,1]"
7180.275,,survey-likert,92,1156257,0.0-92.0,,,,origin41,"{""0"":6,""1"":4}","[0,1]"
4508.22,,survey-likert,93,1160769,0.0-93.0,,,,origin50,"{""0"":6,""1"":5}","[0,1]"
3900.26,,survey-likert,94,1164673,0.0-94.0,,,,origin35,"{""0"":6,""1"":5}","[0,1]"
7972.275,,survey-likert,95,1172649,0.0-95.0,,,,data51,"{""0"":6,""1"":5}","[0,1]"
14212.46,,survey-likert,96,1186865,0.0-96.0,,,,data59,"{""0"":1,""1"":4}","[0,1]"
5804.43,,survey-likert,97,1192673,0.0-97.0,,,,origin13,"{""0"":5,""1"":5}","[0,1]"
7844.37,,survey-likert,98,1200521,0.0-98.0,,,,origin16,"{""0"":4,""1"":1}","[0,1]"
22772.7,,survey-likert,99,1223296,0.0-99.0,,,,data24,"{""0"":5,""1"":2}","[0,1]"
7092.49,,survey-likert,100,1230392,0.0-100.0,,,,data46,"{""0"":6,""1"":4}","[0,1]"
8084.355,,survey-likert,101,1238480,0.0-101.0,,,,data1,"{""0"":3,""1"":2}","[0,1]"
4580.195,,survey-likert,102,1243064,0.0-102.0,,,,data36,"{""0"":5,""1"":4}","[0,1]"
7556.33,,survey-likert,103,1250624,0.0-103.0,,,,data33,"{""0"":1,""1"":4}","[0,1]"
4428.185,,survey-likert,104,1255056,0.0-104.0,,,,origin36,"{""0"":6,""1"":4}","[0,1]"
6380.985,,survey-likert,105,1261440,0.0-105.0,,,,data8,"{""0"":5,""1"":4}","[0,1]"
5380.445,,survey-likert,106,1266824,0.0-106.0,,,,data54,"{""0"":5,""1"":5}","[0,1]"
8556.335,,survey-likert,107,1275384,0.0-107.0,,,,origin22,"{""0"":5,""1"":5}","[0,1]"
4108.32,,survey-likert,108,1279496,0.0-108.0,,,,data47,"{""0"":5,""1"":4}","[0,1]"
3572.41,,survey-likert,109,1283072,0.0-109.0,,,,data56,"{""0"":5,""1"":4}","[0,1]"
7892.545,,survey-likert,110,1290968,0.0-110.0,,,,origin4,"{""0"":4,""1"":3}","[0,1]"
3596.845,,survey-likert,111,1294568,0.0-111.0,,,,data17,"{""0"":5,""1"":3}","[0,1]"
5084.425,,survey-likert,112,1299656,0.0-112.0,,,,data58,"{""0"":5,""1"":2}","[0,1]"
1618.355,CES_D.html,external-html,113,1301351,0.0-113.0,,,,,,
81390.635,,survey-likert2,114,1382746,0.0-114.0,,,,,"{""p1"":0,""p2"":0,""p3"":0,""p4"":3,""p5"":1,""p6"":1,""p7"":0,""p8"":0,""p9"":0,""p10"":2,""p11"":0,""p12"":3,""p13"":0,""p14"":0,""p15"":0,""p16"":1,""p17"":1,""p18"":1,""p19"":0,""p20"":2}","[0,1,2,3,4,5,6,7,8,9,10,11,12,13,14,15,16,17,18,19]"
