rt,url,trial_type,trial_index,time_elapsed,internal_node_id,user_sex,user_age,user_nationality,image_name,responses,question_order
1810828.905,user_info.html,external-html,0,1810809,0.0-0.0,male,25,Asia10,,,
3550.235,instruction_page.html,external-html,1,1814392,0.0-1.0,,,,,,
1527.135,instruction_page2.html,external-html,2,1815944,0.0-2.0,,,,,,
5765.935,instruction_page3.html,external-html,3,1821744,0.0-3.0,,,,,,
20397.64,,survey-likert,4,1842145,0.0-4.0,,,,data16,"{""0"":4,""1"":4}","[0,1]"
6618.945,,survey-likert,5,1848768,0.0-5.0,,,,origin32,"{""0"":5,""1"":4}","[0,1]"
16428.56,,survey-likert,6,1865200,0.0-6.0,,,,origin6,"{""0"":5,""1"":4}","[0,1]"
5716.065,,survey-likert,7,1870920,0.0-7.0,,,,origin26,"{""0"":4,""1"":2}","[0,1]"
25428.015,,survey-likert,8,1896351,0.0-8.0,,,,origin12,"{""0"":2,""1"":3}","[0,1]"
21900.13,,survey-likert,9,1918254,0.0-9.0,,,,data49,"{""0"":1,""1"":4}","[0,1]"
28460.185,,survey-likert,10,1946717,0.0-10.0,,,,origin36,"{""0"":4,""1"":4}","[0,1]"
6884.07,,survey-likert,11,1953605,0.0-11.0,,,,origin37,"{""0"":5,""1"":2}","[0,1]"
11212.375,,survey-likert,12,1964821,0.0-12.0,,,,data59,"{""0"":2,""1"":3}","[0,1]"
31652.145,,survey-likert,13,1996476,0.0-13.0,,,,origin43,"{""0"":5,""1"":2}","[0,1]"
6572.28,,survey-likert,14,2003052,0.0-14.0,,,,data44,"{""0"":2,""1"":1}","[0,1]"
6188.18,,survey-likert,15,2009243,0.0-15.0,,,,origin1,"{""0"":3,""1"":2}","[0,1]"
10484.185,,survey-likert,16,2019731,0.0-16.0,,,,origin38,"{""0"":4,""1"":4}","[0,1]"
18620.755,,survey-likert,17,2038355,0.0-17.0,,,,data13,"{""0"":4,""1"":4}","[0,1]"
11172.835,,survey-likert,18,2049530,0.0-18.0,,,,data27,"{""0"":4,""1"":3}","[0,1]"
30508.865,,survey-likert,19,2080041,0.0-19.0,,,,data23,"{""0"":4,""1"":2}","[0,1]"
4796.32,,survey-likert,20,2084841,0.0-20.0,,,,origin46,"{""0"":4,""1"":4}","[0,1]"
4180.785,,survey-likert,21,2089025,0.0-21.0,,,,data15,"{""0"":4,""1"":1}","[0,1]"
4436.37,,survey-likert,22,2093465,0.0-22.0,,,,origin40,"{""0"":4,""1"":3}","[0,1]"
4508.31,,survey-likert,23,2097999,0.0-23.0,,,,data3,"{""0"":4,""1"":3}","[0,1]"
4078.34,,survey-likert,24,2102081,0.0-24.0,,,,data19,"{""0"":4,""1"":4}","[0,1]"
7380.67,,survey-likert,25,2109464,0.0-25.0,,,,origin5,"{""0"":4,""1"":3}","[0,1]"
7828.805,,survey-likert,26,2117296,0.0-26.0,,,,origin10,"{""0"":3,""1"":4}","[0,1]"
5052.215,,survey-likert,27,2122352,0.0-27.0,,,,data33,"{""0"":4,""1"":4}","[0,1]"
5148.575,,survey-likert,28,2127504,0.0-28.0,,,,data4,"{""0"":4,""1"":3}","[0,1]"
4788.29,,survey-likert,29,2132296,0.0-29.0,,,,data30,"{""0"":5,""1"":5}","[0,1]"
7348.76,,survey-likert,30,2139648,0.0-30.0,,,,data10,"{""0"":4,""1"":4}","[0,1]"
6052.915,,survey-likert,31,2145704,0.0-31.0,,,,data8,"{""0"":5,""1"":4}","[0,1]"
3708.285,,survey-likert,32,2149415,0.0-32.0,,,,origin30,"{""0"":5,""1"":5}","[0,1]"
8748.795,,survey-likert,33,2158167,0.0-33.0,,,,data17,"{""0"":5,""1"":4}","[0,1]"
7348.205,,survey-likert,34,2165519,0.0-34.0,,,,origin48,"{""0"":5,""1"":4}","[0,1]"
5004.37,,survey-likert,35,2170527,0.0-35.0,,,,origin13,"{""0"":4,""1"":4}","[0,1]"
4956.175,,survey-likert,36,2175487,0.0-36.0,,,,origin47,"{""0"":4,""1"":4}","[0,1]"
3300.89,,survey-likert,37,2178791,0.0-37.0,,,,data29,"{""0"":4,""1"":3}","[0,1]"
4284.135,,survey-likert,38,2183078,0.0-38.0,,,,data52,"{""0"":4,""1"":4}","[0,1]"
4396.86,,survey-likert,39,2187478,0.0-39.0,,,,data12,"{""0"":4,""1"":4}","[0,1]"
6108.32,,survey-likert,40,2193590,0.0-40.0,,,,origin42,"{""0"":2,""1"":1}","[0,1]"
4428.815,,survey-likert,41,2198022,0.0-41.0,,,,data25,"{""0"":2,""1"":1}","[0,1]"
6804.22,,survey-likert,42,2204830,0.0-42.0,,,,origin33,"{""0"":4,""1"":2}","[0,1]"
3964.465,,survey-likert,43,2208798,0.0-43.0,,,,data45,"{""0"":4,""1"":4}","[0,1]"
6468.435,,survey-likert,44,2215270,0.0-44.0,,,,origin2,"{""0"":4,""1"":3}","[0,1]"
138508.31,,survey-likert,45,2353777,0.0-45.0,,,,data37,"{""0"":0,""1"":0}","[0,1]"
20700.35,,survey-likert,46,2374480,0.0-46.0,,,,data31,"{""0"":4,""1"":4}","[0,1]"
8828.265,,survey-likert,47,2383312,0.0-47.0,,,,origin50,"{""0"":5,""1"":4}","[0,1]"
8836.185,,survey-likert,48,2392152,0.0-48.0,,,,origin24,"{""0"":4,""1"":2}","[0,1]"
7268.25,,survey-likert,49,2399423,0.0-49.0,,,,origin18,"{""0"":4,""1"":3}","[0,1]"
15860.525,,survey-likert,50,2415287,0.0-50.0,,,,origin22,"{""0"":3,""1"":1}","[0,1]"
9108.28,,survey-likert,51,2424398,0.0-51.0,,,,data38,"{""0"":4,""1"":2}","[0,1]"
5572.92,,survey-likert,52,2429974,0.0-52.0,,,,data22,"{""0"":4,""1"":4}","[0,1]"
7428.17,,survey-likert,53,2437406,0.0-53.0,,,,origin19,"{""0"":4,""1"":4}","[0,1]"
7508.54,,survey-likert,54,2444917,0.0-54.0,,,,data36,"{""0"":4,""1"":3}","[0,1]"
11284.73,,survey-likert,55,2456206,0.0-55.0,,,,data11,"{""0"":2,""1"":1}","[0,1]"
6467.715,,survey-likert,56,2462677,0.0-56.0,,,,origin23,"{""0"":1,""1"":1}","[0,1]"
6668.26,,survey-likert,57,2469349,0.0-57.0,,,,data51,"{""0"":5,""1"":4}","[0,1]"
6020.27,,survey-likert,58,2475372,0.0-58.0,,,,data41,"{""0"":4,""1"":4}","[0,1]"
7188.77,,survey-likert,59,2482564,0.0-59.0,,,,data26,"{""0"":4,""1"":4}","[0,1]"
5652.29,,survey-likert,60,2488220,0.0-60.0,,,,origin29,"{""0"":5,""1"":4}","[0,1]"
7180.385,,survey-likert,61,2495404,0.0-61.0,,,,origin25,"{""0"":5,""1"":2}","[0,1]"
6052.2,,survey-likert,62,2501459,0.0-62.0,,,,origin20,"{""0"":5,""1"":2}","[0,1]"
5692.825,,survey-likert,63,2507155,0.0-63.0,,,,data28,"{""0"":4,""1"":3}","[0,1]"
5844.48,,survey-likert,64,2513003,0.0-64.0,,,,origin44,"{""0"":4,""1"":4}","[0,1]"
5756.835,,survey-likert,65,2518763,0.0-65.0,,,,data9,"{""0"":4,""1"":3}","[0,1]"
5764.295,,survey-likert,66,2524530,0.0-66.0,,,,data1,"{""0"":4,""1"":3}","[0,1]"
6484.44,,survey-likert,67,2531018,0.0-67.0,,,,origin31,"{""0"":3,""1"":2}","[0,1]"
6676.705,,survey-likert,68,2537698,0.0-68.0,,,,data20,"{""0"":4,""1"":4}","[0,1]"
6404.295,,survey-likert,69,2544106,0.0-69.0,,,,origin14,"{""0"":5,""1"":5}","[0,1]"
4916.27,,survey-likert,70,2549026,0.0-70.0,,,,origin27,"{""0"":4,""1"":4}","[0,1]"
5396.25,,survey-likert,71,2554425,0.0-71.0,,,,data43,"{""0"":4,""1"":3}","[0,1]"
5492.21,,survey-likert,72,2559921,0.0-72.0,,,,origin3,"{""0"":4,""1"":2}","[0,1]"
5604.225,,survey-likert,73,2565529,0.0-73.0,,,,origin16,"{""0"":4,""1"":3}","[0,1]"
4060.49,,survey-likert,74,2569593,0.0-74.0,,,,data54,"{""0"":4,""1"":4}","[0,1]"
4684.355,,survey-likert,75,2574281,0.0-75.0,,,,origin39,"{""0"":4,""1"":2}","[0,1]"
4812.24,,survey-likert,76,2579096,0.0-76.0,,,,origin41,"{""0"":5,""1"":4}","[0,1]"
7660.82,,survey-likert,77,2586760,0.0-77.0,,,,data7,"{""0"":4,""1"":3}","[0,1]"
6724.225,,survey-likert,78,2593488,0.0-78.0,,,,origin34,"{""0"":4,""1"":5}","[0,1]"
5036.28,,survey-likert,79,2598528,0.0-79.0,,,,data35,"{""0"":5,""1"":4}","[0,1]"
4004.35,,survey-likert,80,2602536,0.0-80.0,,,,origin15,"{""0"":4,""1"":4}","[0,1]"
3956.18,,survey-likert,81,2606495,0.0-81.0,,,,data56,"{""0"":4,""1"":4}","[0,1]"
4324.46,,survey-likert,82,2610823,0.0-82.0,,,,data46,"{""0"":5,""1"":5}","[0,1]"
6172.36,,survey-likert,83,2616999,0.0-83.0,,,,data50,"{""0"":5,""1"":4}","[0,1]"
3836.625,,survey-likert,84,2620839,0.0-84.0,,,,origin8,"{""0"":4,""1"":3}","[0,1]"
4692.37,,survey-likert,85,2625535,0.0-85.0,,,,data48,"{""0"":4,""1"":1}","[0,1]"
8428.33,,survey-likert,86,2633967,0.0-86.0,,,,origin21,"{""0"":4,""1"":2}","[0,1]"
10772.38,,survey-likert,87,2644742,0.0-87.0,,,,origin45,"{""0"":5,""1"":4}","[0,1]"
5548.71,,survey-likert,88,2650294,0.0-88.0,,,,data6,"{""0"":4,""1"":4}","[0,1]"
5628.355,,survey-likert,89,2655926,0.0-89.0,,,,data53,"{""0"":4,""1"":4}","[0,1]"
8820.34,,survey-likert,90,2664749,0.0-90.0,,,,data39,"{""0"":4,""1"":4}","[0,1]"
10724.245,,survey-likert,91,2675477,0.0-91.0,,,,origin11,"{""0"":4,""1"":3}","[0,1]"
4308.27,,survey-likert,92,2679789,0.0-92.0,,,,origin28,"{""0"":4,""1"":5}","[0,1]"
4444.745,,survey-likert,93,2684237,0.0-93.0,,,,origin9,"{""0"":4,""1"":2}","[0,1]"
4260.245,,survey-likert,94,2688501,0.0-94.0,,,,origin17,"{""0"":5,""1"":4}","[0,1]"
4284.285,,survey-likert,95,2692789,0.0-95.0,,,,origin49,"{""0"":4,""1"":1}","[0,1]"
4996.34,,survey-likert,96,2697788,0.0-96.0,,,,data42,"{""0"":2,""1"":1}","[0,1]"
4788.395,,survey-likert,97,2702580,0.0-97.0,,,,data32,"{""0"":4,""1"":3}","[0,1]"
5700.765,,survey-likert,98,2708284,0.0-98.0,,,,data21,"{""0"":4,""1"":4}","[0,1]"
4316.885,,survey-likert,99,2712604,0.0-99.0,,,,data14,"{""0"":5,""1"":4}","[0,1]"
8524.38,,survey-likert,100,2721132,0.0-100.0,,,,origin35,"{""0"":4,""1"":1}","[0,1]"
7452.285,,survey-likert,101,2728587,0.0-101.0,,,,data2,"{""0"":4,""1"":2}","[0,1]"
4668.75,,survey-likert,102,2733259,0.0-102.0,,,,origin4,"{""0"":4,""1"":2}","[0,1]"
5316.875,,survey-likert,103,2738579,0.0-103.0,,,,data24,"{""0"":4,""1"":3}","[0,1]"
4460.33,,survey-likert,104,2743043,0.0-104.0,,,,data34,"{""0"":4,""1"":1}","[0,1]"
3764.255,,survey-likert,105,2746811,0.0-105.0,,,,data47,"{""0"":4,""1"":4}","[0,1]"
5156.31,,survey-likert,106,2751971,0.0-106.0,,,,data58,"{""0"":4,""1"":3}","[0,1]"
5556.7,,survey-likert,107,2757530,0.0-107.0,,,,data18,"{""0"":4,""1"":2}","[0,1]"
4356.33,,survey-likert,108,2761890,0.0-108.0,,,,data55,"{""0"":4,""1"":3}","[0,1]"
3732.925,,survey-likert,109,2765626,0.0-109.0,,,,data5,"{""0"":4,""1"":3}","[0,1]"
4124.89,,survey-likert,110,2769754,0.0-110.0,,,,origin7,"{""0"":5,""1"":4}","[0,1]"
4412.32,,survey-likert,111,2774170,0.0-111.0,,,,data40,"{""0"":5,""1"":4}","[0,1]"
4644.225,,survey-likert,112,2778818,0.0-112.0,,,,data57,"{""0"":4,""1"":4}","[0,1]"
3309.76,CES_D.html,external-html,113,2782161,0.0-113.0,,,,,,
82318.745,,survey-likert2,114,2864482,0.0-114.0,,,,,"{""p1"":1,""p2"":1,""p3"":0,""p4"":2,""p5"":1,""p6"":1,""p7"":1,""p8"":1,""p9"":0,""p10"":1,""p11"":1,""p12"":2,""p13"":0,""p14"":1,""p15"":2,""p16"":1,""p17"":0,""p18"":1,""p19"":1,""p20"":1}","[0,1,2,3,4,5,6,7,8,9,10,11,12,13,14,15,16,17,18,19]"
