"rt","url","trial_type","trial_index","time_elapsed","internal_node_id","user_sex","user_age","user_nationality","image_name","responses","question_order"
"931940.6600000003","user_info.html","external-html","0","931657","0.0-0.0","male","27","Asia10","","",""
"1334.3350000004284","instruction_page.html","external-html","1","933030","0.0-1.0","","","","","",""
"1473.804999999702","instruction_page2.html","external-html","2","934534","0.0-2.0","","","","","",""
"1262.6099999997532","instruction_page3.html","external-html","3","935822","0.0-3.0","","","","","",""
"4653.825000000303","","survey-likert","4","940479","0.0-4.0","","","","origin37","{""0"":4,""1"":2}","[0,1]"
"4396.179999999818","","survey-likert","5","944879","0.0-5.0","","","","origin10","{""0"":3,""1"":4}","[0,1]"
"3683.600000000326","","survey-likert","6","948567","0.0-6.0","","","","origin14","{""0"":2,""1"":3}","[0,1]"
"8893.109999999986","","survey-likert","7","957463","0.0-7.0","","","","data26","{""0"":4,""1"":2}","[0,1]"
"3964.6149999998743","","survey-likert","8","961431","0.0-8.0","","","","origin6","{""0"":2,""1"":4}","[0,1]"
"3020.4249999996973","","survey-likert","9","964455","0.0-9.0","","","","origin4","{""0"":3,""1"":1}","[0,1]"
"3092.2100000007777","","survey-likert","10","967551","0.0-10.0","","","","origin15","{""0"":2,""1"":4}","[0,1]"
"10700.284999999916","","survey-likert","11","978255","0.0-11.0","","","","origin21","{""0"":1,""1"":1}","[0,1]"
"4204.794999999693","","survey-likert","12","982463","0.0-12.0","","","","data10","{""0"":1,""1"":1}","[0,1]"
"3612.664999999688","","survey-likert","13","986079","0.0-13.0","","","","data11","{""0"":1,""1"":1}","[0,1]"
"3380.100000000326","","survey-likert","14","989463","0.0-14.0","","","","origin28","{""0"":1,""1"":1}","[0,1]"
"2620.4850000003353","","survey-likert","15","992087","0.0-15.0","","","","origin47","{""0"":1,""1"":1}","[0,1]"
"2844.959999999497","","survey-likert","16","994935","0.0-16.0","","","","origin9","{""0"":1,""1"":1}","[0,1]"
"3396.2999999994645","","survey-likert","17","998335","0.0-17.0","","","","data29","{""0"":1,""1"":1}","[0,1]"
"2636.5649999998277","","survey-likert","18","1000975","0.0-18.0","","","","origin23","{""0"":1,""1"":1}","[0,1]"
"2572.4999999993015","","survey-likert","19","1003551","0.0-19.0","","","","data33","{""0"":1,""1"":1}","[0,1]"
"3684.3599999992875","","survey-likert","20","1007239","0.0-20.0","","","","origin41","{""0"":1,""1"":1}","[0,1]"
"3244.20000000007","","survey-likert","21","1010487","0.0-21.0","","","","data1","{""0"":1,""1"":2}","[0,1]"
"3372.1350000005914","","survey-likert","22","1013863","0.0-22.0","","","","data55","{""0"":2,""1"":4}","[0,1]"
"2356.600000000093","","survey-likert","23","1016223","0.0-23.0","","","","data37","{""0"":2,""1"":3}","[0,1]"
"3324.7099999998463","","survey-likert","24","1019551","0.0-24.0","","","","data28","{""0"":4,""1"":2}","[0,1]"
"2948.184999999241","","survey-likert","25","1022503","0.0-25.0","","","","data49","{""0"":2,""1"":3}","[0,1]"
"3044.050000000396","","survey-likert","26","1025551","0.0-26.0","","","","origin39","{""0"":3,""1"":2}","[0,1]"
"4812.624999999534","","survey-likert","27","1030367","0.0-27.0","","","","origin7","{""0"":2,""1"":3}","[0,1]"
"3524.0100000001257","","survey-likert","28","1033895","0.0-28.0","","","","origin29","{""0"":1,""1"":2}","[0,1]"
"2660.74000000034","","survey-likert","29","1036559","0.0-29.0","","","","origin42","{""0"":1,""1"":3}","[0,1]"
"3540.1299999994226","","survey-likert","30","1040103","0.0-30.0","","","","origin40","{""0"":0,""1"":2}","[0,1]"
"3492.454999999609","","survey-likert","31","1043599","0.0-31.0","","","","origin49","{""0"":1,""1"":3}","[0,1]"
"3220.3949999994365","","survey-likert","32","1046823","0.0-32.0","","","","origin30","{""0"":3,""1"":2}","[0,1]"
"3324.3699999994133","","survey-likert","33","1050151","0.0-33.0","","","","data3","{""0"":2,""1"":1}","[0,1]"
"5724.875","","survey-likert","34","1055879","0.0-34.0","","","","data22","{""0"":6,""1"":2}","[0,1]"
"4548.060000000056","","survey-likert","35","1060431","0.0-35.0","","","","origin2","{""0"":5,""1"":2}","[0,1]"
"7660.229999999516","","survey-likert","36","1068095","0.0-36.0","","","","origin35","{""0"":4,""1"":2}","[0,1]"
"4332.744999999879","","survey-likert","37","1072431","0.0-37.0","","","","data18","{""0"":5,""1"":2}","[0,1]"
"3580.0799999998417","","survey-likert","38","1076015","0.0-38.0","","","","data57","{""0"":5,""1"":1}","[0,1]"
"3076.6450000000186","","survey-likert","39","1079095","0.0-39.0","","","","data20","{""0"":5,""1"":2}","[0,1]"
"2604.20500000054","","survey-likert","40","1081703","0.0-40.0","","","","data36","{""0"":5,""1"":1}","[0,1]"
"4820.575000000652","","survey-likert","41","1086527","0.0-41.0","","","","data46","{""0"":3,""1"":1}","[0,1]"
"2892.2549999996554","","survey-likert","42","1089423","0.0-42.0","","","","origin17","{""0"":5,""1"":1}","[0,1]"
"3412.4999999993015","","survey-likert","43","1092839","0.0-43.0","","","","origin5","{""0"":5,""1"":1}","[0,1]"
"2252.179999999469","","survey-likert","44","1095095","0.0-44.0","","","","origin46","{""0"":5,""1"":2}","[0,1]"
"3540.3050000004005","","survey-likert","45","1098639","0.0-45.0","","","","origin19","{""0"":4,""1"":1}","[0,1]"
"3436.329999999609","","survey-likert","46","1102079","0.0-46.0","","","","origin43","{""0"":5,""1"":1}","[0,1]"
"2828.6200000001118","","survey-likert","47","1104911","0.0-47.0","","","","data40","{""0"":4,""1"":1}","[0,1]"
"2668.340000000084","","survey-likert","48","1107583","0.0-48.0","","","","origin32","{""0"":4,""1"":1}","[0,1]"
"3204.43499999959","","survey-likert","49","1110791","0.0-49.0","","","","origin22","{""0"":4,""1"":1}","[0,1]"
"3580.7800000002608","","survey-likert","50","1114376","0.0-50.0","","","","data14","{""0"":5,""1"":1}","[0,1]"
"4323.764999999898","","survey-likert","51","1118703","0.0-51.0","","","","origin11","{""0"":4,""1"":1}","[0,1]"
"2748.675000000745","","survey-likert","52","1121455","0.0-52.0","","","","data27","{""0"":4,""1"":1}","[0,1]"
"2484.054999999935","","survey-likert","53","1123943","0.0-53.0","","","","origin44","{""0"":4,""1"":1}","[0,1]"
"2764.7799999995623","","survey-likert","54","1126711","0.0-54.0","","","","origin3","{""0"":4,""1"":1}","[0,1]"
"4404.47999999905","","survey-likert","55","1131119","0.0-55.0","","","","origin12","{""0"":4,""1"":1}","[0,1]"
"2740.284999999916","","survey-likert","56","1133863","0.0-56.0","","","","data38","{""0"":4,""1"":1}","[0,1]"
"3468.3900000001304","","survey-likert","57","1137335","0.0-57.0","","","","origin13","{""0"":5,""1"":2}","[0,1]"
"2844.5499999998137","","survey-likert","58","1140183","0.0-58.0","","","","data58","{""0"":5,""1"":1}","[0,1]"
"2204.2350000001024","","survey-likert","59","1142391","0.0-59.0","","","","origin27","{""0"":4,""1"":2}","[0,1]"
"3700.6500000006054","","survey-likert","60","1146095","0.0-60.0","","","","origin20","{""0"":5,""1"":1}","[0,1]"
"2668.1550000002608","","survey-likert","61","1148767","0.0-61.0","","","","origin45","{""0"":5,""1"":1}","[0,1]"
"3980.5849999992643","","survey-likert","62","1152751","0.0-62.0","","","","data2","{""0"":6,""1"":2}","[0,1]"
"2668.4449999993667","","survey-likert","63","1155423","0.0-63.0","","","","origin26","{""0"":6,""1"":2}","[0,1]"
"3004.719999999972","","survey-likert","64","1158431","0.0-64.0","","","","data48","{""0"":5,""1"":2}","[0,1]"
"3315.979999999283","","survey-likert","65","1161751","0.0-65.0","","","","data39","{""0"":5,""1"":2}","[0,1]"
"2325.0899999993853","","survey-likert","66","1164079","0.0-66.0","","","","data21","{""0"":4,""1"":2}","[0,1]"
"3452.2799999995623","","survey-likert","67","1167535","0.0-67.0","","","","data31","{""0"":5,""1"":3}","[0,1]"
"2780.0550000001676","","survey-likert","68","1170319","0.0-68.0","","","","data47","{""0"":5,""1"":1}","[0,1]"
"2788.9699999997392","","survey-likert","69","1173111","0.0-69.0","","","","data13","{""0"":5,""1"":2}","[0,1]"
"2828.2950000001583","","survey-likert","70","1175943","0.0-70.0","","","","data59","{""0"":6,""1"":1}","[0,1]"
"2228.820000000298","","survey-likert","71","1178175","0.0-71.0","","","","data4","{""0"":5,""1"":2}","[0,1]"
"3604.200000000652","","survey-likert","72","1181783","0.0-72.0","","","","data54","{""0"":5,""1"":1}","[0,1]"
"2876.234999999637","","survey-likert","73","1184663","0.0-73.0","","","","data44","{""0"":5,""1"":1}","[0,1]"
"3668.644999999786","","survey-likert","74","1188335","0.0-74.0","","","","data41","{""0"":5,""1"":2}","[0,1]"
"3860.4799999995157","","survey-likert","75","1192199","0.0-75.0","","","","data16","{""0"":6,""1"":1}","[0,1]"
"4716.174999999581","","survey-likert","76","1196919","0.0-76.0","","","","origin1","{""0"":5,""1"":1}","[0,1]"
"3804.1700000001583","","survey-likert","77","1200727","0.0-77.0","","","","origin24","{""0"":4,""1"":1}","[0,1]"
"3332.7150000003166","","survey-likert","78","1204063","0.0-78.0","","","","data9","{""0"":6,""1"":2}","[0,1]"
"2860.2000000001863","","survey-likert","79","1206927","0.0-79.0","","","","data43","{""0"":5,""1"":3}","[0,1]"
"3188.469999999972","","survey-likert","80","1210119","0.0-80.0","","","","data32","{""0"":5,""1"":1}","[0,1]"
"3820.475000000326","","survey-likert","81","1213943","0.0-81.0","","","","origin8","{""0"":5,""1"":2}","[0,1]"
"2732.5749999999534","","survey-likert","82","1216679","0.0-82.0","","","","data35","{""0"":4,""1"":2}","[0,1]"
"2044.6649999993388","","survey-likert","83","1218727","0.0-83.0","","","","data19","{""0"":5,""1"":1}","[0,1]"
"2540.3400000003166","","survey-likert","84","1221271","0.0-84.0","","","","origin33","{""0"":5,""1"":2}","[0,1]"
"3308.6750000002794","","survey-likert","85","1224583","0.0-85.0","","","","data45","{""0"":6,""1"":3}","[0,1]"
"4876.635000000475","","survey-likert","86","1229463","0.0-86.0","","","","data12","{""0"":5,""1"":0}","[0,1]"
"2916.274999999441","","survey-likert","87","1232383","0.0-87.0","","","","data53","{""0"":5,""1"":1}","[0,1]"
"2452.7799999995623","","survey-likert","88","1234839","0.0-88.0","","","","data6","{""0"":5,""1"":2}","[0,1]"
"17332.29500000016","","survey-likert","89","1252175","0.0-89.0","","","","data51","{""0"":5,""1"":2}","[0,1]"
"3788.5649999997113","","survey-likert","90","1255967","0.0-90.0","","","","data25","{""0"":5,""1"":1}","[0,1]"
"2668.714999999851","","survey-likert","91","1258639","0.0-91.0","","","","data23","{""0"":4,""1"":1}","[0,1]"
"2708.1699999999255","","survey-likert","92","1261351","0.0-92.0","","","","origin18","{""0"":5,""1"":1}","[0,1]"
"2116.654999999795","","survey-likert","93","1263471","0.0-93.0","","","","data50","{""0"":4,""1"":1}","[0,1]"
"2620.5149999996647","","survey-likert","94","1266095","0.0-94.0","","","","data17","{""0"":5,""1"":1}","[0,1]"
"2588.115000000689","","survey-likert","95","1268687","0.0-95.0","","","","data52","{""0"":5,""1"":1}","[0,1]"
"3644.3700000001118","","survey-likert","96","1272335","0.0-96.0","","","","origin25","{""0"":5,""1"":1}","[0,1]"
"2516.524999999907","","survey-likert","97","1274855","0.0-97.0","","","","data34","{""0"":4,""1"":2}","[0,1]"
"3436.9449999993667","","survey-likert","98","1278295","0.0-98.0","","","","data24","{""0"":5,""1"":1}","[0,1]"
"2444.320000000531","","survey-likert","99","1280743","0.0-99.0","","","","data30","{""0"":5,""1"":1}","[0,1]"
"2324.5850000004284","","survey-likert","100","1283071","0.0-100.0","","","","data7","{""0"":5,""1"":1}","[0,1]"
"2740.325000000652","","survey-likert","101","1285815","0.0-101.0","","","","origin34","{""0"":4,""1"":1}","[0,1]"
"1892.8049999994691","","survey-likert","102","1287711","0.0-102.0","","","","data15","{""0"":5,""1"":1}","[0,1]"
"2268.755000000121","","survey-likert","103","1289983","0.0-103.0","","","","data5","{""0"":5,""1"":1}","[0,1]"
"3076.274999999441","","survey-likert","104","1293063","0.0-104.0","","","","origin16","{""0"":4,""1"":1}","[0,1]"
"3180.1699999996927","","survey-likert","105","1296247","0.0-105.0","","","","data42","{""0"":6,""1"":1}","[0,1]"
"2788.7700000002515","","survey-likert","106","1299039","0.0-106.0","","","","data8","{""0"":5,""1"":1}","[0,1]"
"4604.229999999981","","survey-likert","107","1303647","0.0-107.0","","","","data56","{""0"":5,""1"":1}","[0,1]"
"2364.325000000652","","survey-likert","108","1306015","0.0-108.0","","","","origin36","{""0"":5,""1"":2}","[0,1]"
"2852.454999999376","","survey-likert","109","1308871","0.0-109.0","","","","origin31","{""0"":5,""1"":1}","[0,1]"
"2620.2000000001863","","survey-likert","110","1311495","0.0-110.0","","","","origin38","{""0"":5,""1"":1}","[0,1]"
"3556.690000000177","","survey-likert","111","1315055","0.0-111.0","","","","origin48","{""0"":5,""1"":2}","[0,1]"
"3444.2199999995064","","survey-likert","112","1318503","0.0-112.0","","","","origin50","{""0"":5,""1"":3}","[0,1]"
"1580.83499999973","CES_D.html","external-html","113","1320118","0.0-113.0","","","","","",""
"56230.65999999945","","survey-likert2","114","1376354","0.0-114.0","","","","","{""p1"":2,""p2"":1,""p3"":0,""p4"":1,""p5"":1,""p6"":1,""p7"":1,""p8"":2,""p9"":0,""p10"":2,""p11"":1,""p12"":2,""p13"":1,""p14"":1,""p15"":1,""p16"":1,""p17"":1,""p18"":2,""p19"":1,""p20"":1}","[0,1,2,3,4,5,6,7,8,9,10,11,12,13,14,15,16,17,18,19]"
